File: csv/xrd.csv
time,CapMrktEstUSD,ReferenceRate,ReferenceRateBTC,ReferenceRateETH,ReferenceRateEUR,ReferenceRateUSD,principal_market_price_usd,principal_market_usd
2022-03-14,1.14906e+09,,,,,,,
2022-03-15,1.15717e+09,,,,,,,
2022-03-16,1.21944e+09,,,,,,,
2022-03-17,1.26544e+09,,,,,,,
2022-03-18,1.26091e+09,,,,,,,
2022-03-19,1.20145e+09,,,,,,,
2022-03-20,1.20591e+09,,,,,,,
2022-03-21,1.25676e+09,,,,,,,
2022-03-22,1.42837e+09,,,,,,,
2022-03-23,1.62072e+09,,,,,,,
2022-03-24,1.43508e+09,,,,,,,
2022-03-25,1.45435e+09,,,,,,,
2022-03-26,1.44803e+09,,,,,,,
2022-03-27,1.55313e+09,,,,,,,
2022-03-28,1.54394e+09,,,,,,,
2022-03-29,1.53819e+09,,,,,,,
2022-03-30,1.55619e+09,,,,,,,
2022-03-31,1.43863e+09,,,,,,,
2022-04-01,1.48147e+09,,,,,,,
2022-04-02,1.4485e+09,,,,,,,
2022-04-03,1.49037e+09,,,,,,,
2022-04-04,1.4748e+09,,,,,,,
2022-04-05,1.40871e+09,,,,,,,
2022-04-06,1.29576e+09,,,,,,,
2022-04-07,1.3705e+09,,,,,,,
2022-04-08,1.36428e+09,,,,,,,
2022-04-09,1.37658e+09,,,,,,,
2022-04-10,1.36185e+09,,,,,,,
2022-04-11,1.30747e+09,,,,,,,
2022-04-12,1.30938e+09,,,,,,,
2022-04-13,1.35329e+09,,,,,,,
2022-04-14,1.33646e+09,,,,,,,
2022-04-15,1.3634e+09,,,,,,,
2022-04-16,1.36616e+09,,,,,,,
2022-04-17,1.38753e+09,,,,,,,
2022-04-18,1.38725e+09,,,,,,,
2022-04-19,1.34464e+09,,,,,,,
2022-04-20,1.30906e+09,,,,,,,
2022-04-21,1.30355e+09,,,,,,,
2022-04-22,1.27368e+09,,,,,,,
2022-04-23,1.26373e+09,,,,,,,
2022-04-24,1.28652e+09,,,,,,,
2022-04-25,1.23067e+09,,,,,,,
2022-04-26,1.23528e+09,,,,,,,
2022-04-27,1.24684e+09,,,,,,,
2022-04-28,1.21094e+09,,,,,,,
2022-04-29,1.13592e+09,,,,,,,
2022-04-30,1.12189e+09,,,,,,,
2022-05-01,1.11926e+09,,,,,,,
2022-05-02,1.09224e+09,,,,,,,
2022-05-03,1.11855e+09,,,,,,,
2022-05-04,1.22861e+09,,,,,,,
2022-05-05,1.12442e+09,,,,,,,
2022-05-06,1.17627e+09,,,,,,,
2022-05-07,1.11446e+09,,,,,,,
2022-05-08,1.0945e+09,,,,,,,
2022-05-09,9.59013e+08,,,,,,,
2022-05-10,1.0078e+09,,,,,,,
2022-05-11,8.64959e+08,,,,,,,
2022-05-12,7.78627e+08,,,,,,,
2022-05-13,8.70603e+08,,,,,,,
2022-05-14,8.76047e+08,,,,,,,
2022-05-15,9.03368e+08,,,,,,,
2022-05-16,8.63544e+08,,,,,,,
2022-05-17,8.61393e+08,,,,,,,
2022-05-18,8.31883e+08,,,,,,,
2022-05-19,8.33005e+08,,,,,,,
2022-05-20,8.26792e+08,,,,,,,
2022-05-21,8.25909e+08,,,,,,,
2022-05-22,8.56465e+08,,,,,,,
2022-05-23,8.8799e+08,,,,,,,
2022-05-24,8.74997e+08,,,,,,,
2022-05-25,8.81174e+08,,,,,,,
2022-05-26,8.61975e+08,,,,,,,
2022-05-27,8.14644e+08,,,,,,,
2022-05-28,7.98522e+08,,,,,,,
2022-05-29,8.18139e+08,,,,,,,
2022-05-30,8.62456e+08,,,,,,,
2022-05-31,8.60145e+08,,,,,,,
2022-06-01,8.37414e+08,,,,,,,
2022-06-02,8.2144e+08,,,,,,,
2022-06-03,8.19647e+08,,,,,,,
2022-06-04,8.16872e+08,,,,,,,
2022-06-05,7.99403e+08,,,,,,,
2022-06-06,8.03637e+08,,,,,,,
2022-06-07,7.30857e+08,,,,,,,
2022-06-08,7.80165e+08,,,,,,,
2022-06-09,7.83224e+08,,,,,,,
2022-06-10,7.64008e+08,,,,,,,
2022-06-11,7.24748e+08,,,,,,,
2022-06-12,6.90892e+08,,,,,,,
2022-06-13,6.03153e+08,,,,,,,
2022-06-14,6.1743e+08,,,,,,,
2022-06-15,6.84446e+08,,,,,,,
2022-06-16,6.06621e+08,,,,,,,
2022-06-17,6.29582e+08,,,,,,,
2022-06-18,6.13559e+08,,,,,,,
2022-06-19,6.78914e+08,,,,,,,
2022-06-20,6.69252e+08,,,,,,,
2022-06-21,6.67325e+08,,,,,,,
2022-06-22,6.23134e+08,,,,,,,
2022-06-23,6.51979e+08,,,,,,,
2022-06-24,6.82302e+08,,,,,,,
2022-06-25,6.63277e+08,,,,,,,
2022-06-26,6.70073e+08,,,,,,,
2022-06-27,6.60301e+08,,,,,,,
2022-06-28,6.43231e+08,,,,,,,
2022-06-29,6.42912e+08,,,,,,,
2022-06-30,6.35762e+08,,,,,,,
2022-07-01,6.24819e+08,,,,,,,
2022-07-02,6.08936e+08,,,,,,,
2022-07-03,6.01834e+08,,,,,,,
2022-07-04,6.12379e+08,,,,,,,
2022-07-05,6.24604e+08,,,,,,,
2022-07-06,6.20892e+08,,,,,,,
2022-07-07,6.41816e+08,,,,,,,
2022-07-08,6.36639e+08,,,,,,,
2022-07-09,6.23559e+08,,,,,,,
2022-07-10,6.38054e+08,,,,,,,
2022-07-11,6.18868e+08,,,,,,,
2022-07-12,6.13913e+08,,,,,,,
2022-07-13,6.14857e+08,,,,,,,
2022-07-14,6.1679e+08,,,,,,,
2022-07-15,6.21055e+08,,,,,,,
2022-07-16,6.31697e+08,,,,,,,
2022-07-17,6.16515e+08,,,,,,,
2022-07-18,6.62886e+08,,,,,,,
2022-07-19,6.81976e+08,,,,,,,
2022-07-20,6.42847e+08,,,,,,,
2022-07-21,6.3888e+08,,,,,,,
2022-07-22,6.53389e+08,,,,,,,
2022-07-23,6.15002e+08,,,,,,,
2022-07-24,6.33796e+08,,,,,,,
2022-07-25,6.21163e+08,,,,,,,
2022-07-26,5.96776e+08,,,,,,,
2022-07-27,6.24514e+08,,,,,,,
2022-07-28,6.39909e+08,,,,,,,
2022-07-29,6.16388e+08,,,,,,,
2022-07-30,6.36443e+08,,,,,,,
2022-07-31,6.2727e+08,,,,,,,
2022-08-01,6.21259e+08,,,,,,,
2022-08-02,6.1048e+08,,,,,,,
2022-08-03,6.08475e+08,,,,,,,
2022-08-04,5.95566e+08,,,,,,,
2022-08-05,6.04888e+08,,,,,,,
2022-08-06,6.3038e+08,,,,,,,
2022-08-07,6.16499e+08,,,,,,,
2022-08-08,6.28718e+08,,,,,,,
2022-08-09,6.18485e+08,,,,,,,
2022-08-10,6.25143e+08,,,,,,,
2022-08-11,6.35684e+08,,,,,,,
2022-08-12,6.36288e+08,,,,,,,
2022-08-13,6.403e+08,,,,,,,
2022-08-14,6.44412e+08,,,,,,,
2022-08-15,6.35856e+08,,,,,,,
2022-08-16,6.19954e+08,,,,,,,
2022-08-17,6.10865e+08,,,,,,,
2022-08-18,6.02869e+08,,,,,,,
2022-08-19,5.93421e+08,,,,,,,
2022-08-20,5.93403e+08,,,,,,,
2022-08-21,6.10413e+08,,,,,,,
2022-08-22,6.00345e+08,,,,,,,
2022-08-23,6.16322e+08,,,,,,,
2022-08-24,6.08396e+08,,,,,,,
2022-08-25,6.02826e+08,,,,,,,
2022-08-26,5.92824e+08,,,,,,,
2022-08-27,5.67587e+08,,,,,,,
2022-08-28,5.57802e+08,,,,,,,
2022-08-29,5.92399e+08,,,,,,,
2022-08-30,5.88806e+08,,,,,,,
2022-08-31,5.7912e+08,,,,,,,
2022-09-01,5.75511e+08,,,,,,,
2022-09-02,5.72699e+08,,,,,,,
2022-09-03,5.57978e+08,,,,,,,
2022-09-04,5.60661e+08,,,,,,,
2022-09-05,5.70265e+08,,,,,,,
2022-09-06,5.68385e+08,,,,,,,
2022-09-07,5.8241e+08,,,,,,,
2022-09-08,5.89347e+08,,,,,,,
2022-09-09,5.99718e+08,,,,,,,
2022-09-10,5.91036e+08,,,,,,,
2022-09-11,6.46768e+08,,,,,,,
2022-09-12,6.58295e+08,,,,,,,
2022-09-13,6.65681e+08,,,,,,,
2022-09-14,6.45426e+08,,,,,,,
2022-09-15,5.93114e+08,,,,,,,
2022-09-16,5.94833e+08,,,,,,,
2022-09-17,5.93852e+08,,,,,,,
2022-09-18,5.82159e+08,,,,,,,
2022-09-19,5.80051e+08,,,,,,,
2022-09-20,5.7268e+08,,,,,,,
2022-09-21,5.61845e+08,,,,,,,
2022-09-22,5.93506e+08,,,,,,,
2022-09-23,6.02945e+08,,,,,,,
2022-09-24,5.9957e+08,,,,,,,
2022-09-25,5.95774e+08,,,,,,,
2022-09-26,5.82903e+08,,,,,,,
2022-09-27,5.92601e+08,,,,,,,
2022-09-28,6.06991e+08,,,,,,,
2022-09-29,5.98492e+08,,,,,,,
2022-09-30,6.0092e+08,,,,,,,
2022-10-01,6.0364e+08,,,,,,,
2022-10-02,5.98847e+08,,,,,,,
2022-10-03,5.98125e+08,,,,,,,
2022-10-04,5.81224e+08,,,,,,,
2022-10-05,6.05809e+08,,,,,,,
2022-10-06,6.07685e+08,,,,,,,
2022-10-07,5.91888e+08,,,,,,,
2022-10-08,5.78189e+08,,,,,,,
2022-10-09,5.80928e+08,,,,,,,
2022-10-10,5.69894e+08,,,,,,,
2022-10-11,5.55838e+08,,,,,,,
2022-10-12,5.55217e+08,,,,,,,
2022-10-13,5.5151e+08,,,,,,,
2022-10-14,5.40839e+08,,,,,,,
2022-10-15,5.50842e+08,,,,,,,
2022-10-16,5.49923e+08,,,,,,,
2022-10-17,5.38469e+08,,,,,,,
2022-10-18,5.36891e+08,,,,,,,
2022-10-19,5.23862e+08,,,,,,,
2022-10-20,5.01318e+08,,,,,,,
2022-10-21,5.16154e+08,,,,,,,
2022-10-22,4.99023e+08,,,,,,,
2022-10-23,5.06594e+08,,,,,,,
2022-10-24,5.02911e+08,,,,,,,
2022-10-25,5.11212e+08,,,,,,,
2022-10-26,5.23048e+08,,,,,,,
2022-10-27,5.15501e+08,,,,,,,
2022-10-28,5.60093e+08,,,,,,,
2022-10-29,5.82052e+08,,,,,,,
2022-10-30,5.73667e+08,,,,,,,
2022-10-31,5.6134e+08,,,,,,,
2022-11-01,5.62106e+08,,,,,,,
2022-11-02,5.3294e+08,,,,,,,
2022-11-03,5.10427e+08,,,,,,,
2022-11-04,5.44076e+08,,,,,,,
2022-11-05,5.30739e+08,,,,,,,
2022-11-06,5.28544e+08,,,,,,,
2022-11-07,5.58417e+08,,,,,,,
2022-11-08,5.07166e+08,,,,,,,
2022-11-09,4.90522e+08,,,,,,,
2022-11-10,5.20078e+08,,,,,,,
2022-11-11,5.04726e+08,,,,,,,
2022-11-12,5.1205e+08,,,,,,,
2022-11-13,4.84909e+08,,,,,,,
2022-11-14,5.11317e+08,,,,,,,
2022-11-15,5.13627e+08,,,,,,,
2022-11-16,4.64224e+08,,,,,,,
2022-11-17,4.67408e+08,,,,,,,
2022-11-18,4.56325e+08,,,,,,,
2022-11-19,4.51601e+08,,,,,,,
2022-11-20,4.10055e+08,,,,,,,
2022-11-21,4.02917e+08,,,,,,,
2022-11-22,3.76423e+08,,,,,,,
2022-11-23,4.03763e+08,,,,,,,
2022-11-24,3.68095e+08,,,,,,,
2022-11-25,3.56357e+08,,,,,,,
2022-11-26,3.63233e+08,,,,,,,
2022-11-27,3.7126e+08,,,,,,,
2022-11-28,3.44922e+08,,,,,,,
2022-11-29,3.19284e+08,,,,,,,
2022-11-30,3.24168e+08,,,,,,,
2022-12-01,3.46303e+08,,,,,,,
2022-12-02,3.75576e+08,,,,,,,
2022-12-03,3.63782e+08,,,,,,,
2022-12-04,3.604e+08,,,,,,,
2022-12-05,3.59705e+08,,,,,,,
2022-12-06,4.15419e+08,,,,,,,
2022-12-07,4.42068e+08,,,,,,,
2022-12-08,4.79986e+08,,,,,,,
2022-12-09,4.12225e+08,,,,,,,
2022-12-10,4.14089e+08,,,,,,,
2022-12-11,3.8417e+08,,,,,,,
2022-12-12,3.8601e+08,,,,,,,
2022-12-13,4.02179e+08,,,,,,,
2022-12-14,3.96308e+08,,,,,,,
2022-12-15,3.87118e+08,,,,,,,
2022-12-16,3.64647e+08,,,,,,,
2022-12-17,3.62688e+08,,,,,,,
2022-12-18,3.56115e+08,,,,,,,
2022-12-19,3.52336e+08,,,,,,,
2022-12-20,3.52005e+08,,,,,,,
2022-12-21,3.53758e+08,,,,,,,
2022-12-22,3.51119e+08,,,,,,,
2022-12-23,3.50439e+08,,,,,,,
2022-12-24,3.48283e+08,,,,,,,
2022-12-25,3.48147e+08,,,,,,,
2022-12-26,3.47728e+08,,,,,,,
2022-12-27,3.47606e+08,,,,,,,
2022-12-28,3.46815e+08,,,,,,,
2022-12-29,3.47909e+08,,,,,,,
2022-12-30,3.48606e+08,,,,,,,
2022-12-31,3.47186e+08,,,,,,,
2023-01-01,3.43487e+08,,,,,,,
2023-01-02,3.44049e+08,,,,,,,
2023-01-03,3.42226e+08,,,,,,,
2023-01-04,3.40051e+08,,,,,,,
2023-01-05,3.39804e+08,,,,,,,
2023-01-06,3.41849e+08,,,,,,,
2023-01-07,3.42742e+08,,,,,,,
2023-01-08,3.45256e+08,,,,,,,
2023-01-09,3.57779e+08,,,,,,,
2023-01-10,3.61189e+08,,,,,,,
2023-01-11,3.48737e+08,,,,,,,
2023-01-12,3.78001e+08,,,,,,,
2023-01-13,4.23696e+08,,,,,,,
2023-01-14,4.0652e+08,,,,,,,
2023-01-15,4.17704e+08,,,,,,,
2023-01-16,4.03638e+08,,,,,,,
2023-01-17,4.05238e+08,,,,,,,
2023-01-18,4.19479e+08,,,,,,,
2023-01-19,4.15546e+08,,,,,,,
2023-01-20,4.18309e+08,,,,,,,
2023-01-21,4.2947e+08,,,,,,,
2023-01-22,4.23879e+08,,,,,,,
2023-01-23,4.31056e+08,,,,,,,
2023-01-24,4.2387e+08,,,,,,,
2023-01-25,4.19086e+08,,,,,,,
2023-01-26,4.25355e+08,,,,,,,
2023-01-27,4.41958e+08,,,,,,,
2023-01-28,5.37555e+08,,,,,,,
2023-01-29,6.00537e+08,,,,,,,
2023-01-30,5.38092e+08,,,,,,,
2023-01-31,5.61576e+08,,,,,,,
2023-02-01,5.92847e+08,,,,,,,
2023-02-02,6.12092e+08,,,,,,,
2023-02-03,5.97275e+08,,,,,,,
2023-02-04,5.82744e+08,,,,,,,
2023-02-05,5.58731e+08,,,,,,,
2023-02-06,5.29452e+08,,,,,,,
2023-02-07,5.09301e+08,,,,,,,
2023-02-08,5.06298e+08,,,,,,,
2023-02-09,4.52085e+08,,,,,,,
2023-02-10,4.53124e+08,,,,,,,
2023-02-11,4.79301e+08,,,,,,,
2023-02-12,4.70029e+08,,,,,,,
2023-02-13,4.84069e+08,,,,,,,
2023-02-14,4.92389e+08,,,,,,,
2023-02-15,5.35279e+08,,,,,,,
2023-02-16,4.89688e+08,,,,,,,
2023-02-17,4.9914e+08,,,,,,,
2023-02-18,4.97008e+08,,,,,,,
2023-02-19,4.91676e+08,,,,,,,
2023-02-20,5.07387e+08,,,,,,,
2023-02-21,4.96327e+08,,,,,,,
2023-02-22,4.78863e+08,,,,,,,
2023-02-23,4.84088e+08,,,,,,,
2023-02-24,4.65236e+08,,,,,,,
2023-02-25,4.58039e+08,,,,,,,
2023-02-26,4.57569e+08,,,,,,,
2023-02-27,4.64257e+08,,,,,,,
2023-02-28,4.60439e+08,,,,,,,
2023-03-01,4.50278e+08,,,,,,,
2023-03-02,4.44584e+08,,,,,,,
2023-03-03,4.31294e+08,,,,,,,
2023-03-04,4.25822e+08,,,,,,,
2023-03-05,4.29226e+08,,,,,,,
2023-03-06,4.2441e+08,,,,,,,
2023-03-07,4.12857e+08,,,,,,,
2023-03-08,4.10602e+08,,,,,,,
2023-03-09,3.93199e+08,,,,,,,
2023-03-10,3.93449e+08,,,,,,,
2023-03-11,3.71895e+08,,,,,,,
2023-03-12,3.93629e+08,,,,,,,
2023-03-13,3.97271e+08,,,,,,,
2023-03-14,3.92265e+08,,,,,,,
2023-03-15,3.77672e+08,,,,,,,
2023-03-16,3.95826e+08,,,,,,,
2023-03-17,3.94818e+08,,,,,,,
2023-03-18,4.2437e+08,,,,,,,
2023-03-19,4.45102e+08,,,,,,,
2023-03-20,4.20894e+08,,,,,,,
2023-03-21,4.23594e+08,,,,,,,
2023-03-22,4.01049e+08,,,,,,,
2023-03-23,4.61878e+08,,,,,,,
2023-03-24,4.27244e+08,,,,,,,
2023-03-25,4.21166e+08,,,,,,,
2023-03-26,4.37591e+08,,,,,,,
2023-03-27,4.16128e+08,,,,,,,
2023-03-28,4.11836e+08,,,,,,,
2023-03-29,4.26615e+08,,,,,,,
2023-03-30,4.20424e+08,,,,,,,
2023-03-31,4.1132e+08,,,,,,,
2023-04-01,4.35054e+08,,,,,,,
2023-04-02,4.24506e+08,,,,,,,
2023-04-03,4.29652e+08,,,,,,,
2023-04-04,4.57078e+08,,,,,,,
2023-04-05,4.54868e+08,,,,,,,
2023-04-06,4.80942e+08,,,,,,,
2023-04-07,4.85136e+08,,,,,,,
2023-04-08,5.66466e+08,,,,,,,
2023-04-09,5.18868e+08,,,,,,,
2023-04-10,5.2599e+08,,,,,,,
2023-04-11,5.30121e+08,,,,,,,
2023-04-12,6.32169e+08,,,,,,,
2023-04-13,8.28342e+08,,,,,,,
2023-04-14,7.55616e+08,,,,,,,
2023-04-15,7.73449e+08,,,,,,,
2023-04-16,9.05132e+08,,,,,,,
2023-04-17,9.45516e+08,,,,,,,
2023-04-18,1.418e+09,,,,,,,
2023-04-19,1.18176e+09,,,,,,,
2023-04-20,9.91509e+08,,,,,,,
2023-04-21,7.67936e+08,,,,,,,
2023-04-22,1.02497e+09,,,,,,,
2023-04-23,1.00881e+09,,,,,,,
2023-04-24,9.34784e+08,,,,,,,
2023-04-25,1.0571e+09,,,,,,,
2023-04-26,1.05064e+09,,,,,,,
2023-04-27,1.15274e+09,,,,,,,
2023-04-28,1.07784e+09,,,,,,,
2023-04-29,1.07023e+09,,,,,,,
2023-04-30,1.03151e+09,,,,,,,
2023-05-01,1.02512e+09,,,,,,,
2023-05-02,9.36726e+08,,,,,,,
2023-05-03,9.1747e+08,,,,,,,
2023-05-04,8.53057e+08,,,,,,,
2023-05-05,8.10539e+08,,,,,,,
2023-05-06,8.58202e+08,,,,,,,
2023-05-07,8.94149e+08,,,,,,,
2023-05-08,8.30353e+08,,,,,,,
2023-05-09,7.72204e+08,,,,,,,
2023-05-10,7.81164e+08,,,,,,,
2023-05-11,7.71339e+08,,,,,,,
2023-05-12,7.74579e+08,,,,,,,
2023-05-13,7.51678e+08,,,,,,,
2023-05-14,7.38721e+08,,,,,,,
2023-05-15,7.63352e+08,,,,,,,
2023-05-16,7.90173e+08,,,,,,,
2023-05-17,7.616e+08,,,,,,,
2023-05-18,7.33142e+08,,,,,,,
2023-05-19,7.47863e+08,,,,,,,
2023-05-20,7.34882e+08,,,,,,,
2023-05-21,7.06862e+08,,,,,,,
2023-05-22,7.3318e+08,,,,,,,
2023-05-23,7.44235e+08,,,,,,,
2023-05-24,7.31121e+08,,,,,,,
2023-05-25,7.02024e+08,,,,,,,
2023-05-26,7.0514e+08,,,,,,,
2023-05-27,6.62818e+08,,,,,,,
2023-05-28,7.31957e+08,,,,,,,
2023-05-29,7.17972e+08,,,,,,,
2023-05-30,7.12736e+08,,,,,,,
2023-05-31,6.75149e+08,,,,,,,
2023-06-01,6.91067e+08,,,,,,,
2023-06-02,7.36951e+08,,,,,,,
2023-06-03,6.77985e+08,,,,,,,
2023-06-04,6.86963e+08,,,,,,,
2023-06-05,6.58923e+08,,,,,,,
2023-06-06,7.15151e+08,,,,,,,
2023-06-07,6.99811e+08,,,,,,,
2023-06-08,6.85566e+08,,,,,,,
2023-06-09,6.81143e+08,,,,,,,
2023-06-10,6.42525e+08,,,,,,,
2023-06-11,6.40812e+08,,,,,,,
2023-06-12,6.17169e+08,,,,,,,
2023-06-13,6.09026e+08,,,,,,,
2023-06-14,5.61577e+08,,,,,,,
2023-06-15,5.72166e+08,,,,,,,
2023-06-16,6.07031e+08,,,,,,,
2023-06-17,6.19614e+08,,,,,,,
2023-06-18,6.00832e+08,,,,,,,
2023-06-19,5.96666e+08,,,,,,,
2023-06-20,6.14394e+08,,,,,,,
2023-06-21,6.79931e+08,,,,,,,
2023-06-22,7.20552e+08,,,,,,,
2023-06-23,7.51689e+08,,,,,,,
2023-06-24,7.44992e+08,,,,,,,
2023-06-25,7.93721e+08,,,,,,,
2023-06-26,8.64613e+08,,,,,,,
2023-06-27,8.47545e+08,,,,,,,
2023-06-28,6.18894e+08,,,,,,,
2023-06-29,6.8373e+08,,,,,,,
2023-06-30,6.41976e+08,,,,,,,
2023-07-01,6.37601e+08,,,,,,,
2023-07-02,6.55719e+08,,,,,,,
2023-07-03,6.5317e+08,,,,,,,
2023-07-04,6.30673e+08,,,,,,,
2023-07-05,6.01271e+08,,,,,,,
2023-07-06,5.78482e+08,,,,,,,
2023-07-07,5.92312e+08,,,,,,,
2023-07-08,5.9097e+08,,,,,,,
2023-07-09,5.83215e+08,,,,,,,
2023-07-10,5.81402e+08,,,,,,,
2023-07-11,5.66053e+08,,,,,,,
2023-07-12,5.96986e+08,,,,,,,
2023-07-13,6.61726e+08,,,,,,,
2023-07-14,6.83348e+08,,,,,,,
2023-07-15,6.48965e+08,,,,,,,
2023-07-16,6.45429e+08,,,,,,,
2023-07-17,6.11669e+08,,,,,,,
2023-07-18,6.0333e+08,,,,,,,
2023-07-19,6.09465e+08,,,,,,,
2023-07-20,6.05959e+08,,,,,,,
2023-07-21,5.74262e+08,,,,,,,
2023-07-22,5.95074e+08,,,,,,,
2023-07-23,5.94493e+08,,,,,,,
2023-07-24,5.69131e+08,,,,,,,
2023-07-25,5.79536e+08,,,,,,,
2023-07-26,5.78631e+08,,,,,,,
2023-07-27,5.74486e+08,,,,,,,
2023-07-28,5.81915e+08,,,,,,,
2023-07-29,5.73393e+08,,,,,,,
2023-07-30,5.70777e+08,,,,,,,
2023-07-31,5.6333e+08,,,,,,,
2023-08-01,5.6602e+08,,,,,,,
2023-08-02,5.3602e+08,,,,,,,
2023-08-03,5.48791e+08,,,,,,,
2023-08-04,5.36136e+08,,,,,,,
2023-08-05,5.39697e+08,,,,,,,
2023-08-06,5.3519e+08,,,,,,,
2023-08-07,5.35477e+08,,,,,,,
2023-08-08,5.40869e+08,,,,,,,
2023-08-09,5.37224e+08,,,,,,,
2023-08-10,5.38504e+08,,,,,,,
2023-08-11,5.36825e+08,,,,,,,
2023-08-12,5.82034e+08,,,,,,,
2023-08-13,5.66769e+08,,,,,,,
2023-08-14,5.73395e+08,,,,,,,
2023-08-15,5.74291e+08,,,,,,,
2023-08-16,5.76368e+08,,,,,,,
2023-08-17,5.33075e+08,,,,,,,
2023-08-18,5.40395e+08,,,,,,,
2023-08-19,5.68117e+08,,,,,,,
2023-08-20,5.59488e+08,,,,,,,
2023-08-21,5.49919e+08,,,,,,,
2023-08-22,5.59562e+08,,,,,,,
2023-08-23,5.66909e+08,,,,,,,
2023-08-24,5.40893e+08,,,,,,,
2023-08-25,5.50014e+08,,,,,,,
2023-08-26,5.45713e+08,,,,,,,
2023-08-27,5.40462e+08,,,,,,,
2023-08-28,5.3671e+08,,,,,,,
2023-08-29,5.51348e+08,,,,,,,
2023-08-30,5.40547e+08,,,,,,,
2023-08-31,5.40608e+08,,,,,,,
2023-09-01,5.34754e+08,,,,,,,
2023-09-02,5.32198e+08,,,,,,,
2023-09-03,5.31554e+08,,,,,,,
2023-09-04,5.30005e+08,,,,,,,
2023-09-05,5.62542e+08,,,,,,,
2023-09-06,5.52289e+08,,,,,,,
2023-09-07,5.54902e+08,,,,,,,
2023-09-08,6.33205e+08,,,,,,,
2023-09-09,6.45183e+08,,,,,,,
2023-09-10,5.86178e+08,,,,,,,
2023-09-11,5.62417e+08,,,,,,,
2023-09-12,5.84767e+08,,,,,,,
2023-09-13,5.82577e+08,,,,,,,
2023-09-14,5.76355e+08,,,,,,,
2023-09-15,5.72459e+08,,,,,,,
2023-09-16,5.65529e+08,,,,,,,
2023-09-17,5.63061e+08,,,,,,,
2023-09-18,5.73906e+08,,,,,,,
2023-09-19,5.92457e+08,,,,,,,
2023-09-20,5.94219e+08,,,,,,,
2023-09-21,5.94244e+08,,,,,,,
2023-09-22,6.51931e+08,,,,,,,
2023-09-23,6.89876e+08,,,,,,,
2023-09-24,6.33216e+08,,,,,,,
2023-09-25,6.31086e+08,,,,,,,
2023-09-26,6.40861e+08,,,,,,,
2023-09-27,6.46351e+08,,,,,,,
2023-09-28,6.21928e+08,,,,,,,
2023-09-29,5.93443e+08,,,,,,,
2023-09-30,5.8047e+08,,,,,,,
2023-10-01,6.07203e+08,,,,,,,
2023-10-02,5.87852e+08,,,,,,,
2023-10-03,5.80026e+08,,,,,,,
2023-10-04,5.38605e+08,,,,,,,
2023-10-05,4.96424e+08,,,,,,,
2023-10-06,4.91099e+08,,,,,,,
2023-10-07,4.91455e+08,,,,,,,
2023-10-08,4.90997e+08,,,,,,,
2023-10-09,4.51823e+08,,,,,,,
2023-10-10,4.57154e+08,,,,,,,
2023-10-11,4.26097e+08,,,,,,,
2023-10-12,4.11184e+08,,,,,,,
2023-10-13,4.10056e+08,,,,,,,
2023-10-14,4.09029e+08,,,,,,,
2023-10-15,4.11451e+08,,,,,,,
2023-10-16,4.0649e+08,,,,,,,
2023-10-17,4.04221e+08,,,,,,,
2023-10-18,4.26779e+08,,,,,,,
2023-10-19,4.2899e+08,,,,,,,
2023-10-20,4.5172e+08,,,,,,,
2023-10-21,4.31999e+08,,,,,,,
2023-10-22,4.33069e+08,,,,,,,
2023-10-23,4.47282e+08,,,,,,,
2023-10-24,4.60272e+08,,,,,,,
2023-10-25,4.68817e+08,,,,,,,
2023-10-26,4.48942e+08,,,,,,,
2023-10-27,4.24157e+08,,,,,,,
2023-10-28,4.21015e+08,,,,,,,
2023-10-29,4.41987e+08,,,,,,,
2023-10-30,4.25359e+08,,,,,,,
2023-10-31,4.36242e+08,,,,,,,
2023-11-01,4.35165e+08,,,,,,,
2023-11-02,4.2737e+08,,,,,,,
2023-11-03,4.53542e+08,,,,,,,
2023-11-04,4.35895e+08,,,,,,,
2023-11-05,4.56762e+08,,,,,,,
2023-11-06,4.86082e+08,,,,,,,
2023-11-07,4.92163e+08,,,,,,,
2023-11-08,4.42427e+08,,,,,,,
2023-11-09,4.25386e+08,,,,,,,
2023-11-10,4.55331e+08,,,,,,,
2023-11-11,4.51119e+08,,,,,,,
2023-11-12,4.64398e+08,,,,,,,
2023-11-13,4.50231e+08,,,,,,,
2023-11-14,4.62632e+08,,,,,,,
2023-11-15,4.85312e+08,,,,,,,
2023-11-16,4.76418e+08,,,,,,,
2023-11-17,4.79339e+08,,,,,,,
2023-11-18,4.6885e+08,,,,,,,
2023-11-19,4.82796e+08,,,,,,,
2023-11-20,5.72438e+08,,,,,,,
2023-11-21,5.1607e+08,,,,,,,
2023-11-22,6.11596e+08,,,,,,,
2023-11-23,6.01335e+08,,,,,,,
2023-11-24,5.89819e+08,,,,,,,
2023-11-25,5.82188e+08,,,,,,,
2023-11-26,5.55175e+08,,,,,,,
2023-11-27,5.21878e+08,,,,,,,
2023-11-28,5.2383e+08,,,,,,,
2023-11-29,5.80225e+08,,,,,,,
2023-11-30,5.44319e+08,,,,,,,
2023-12-01,5.56396e+08,,,,,,,
2023-12-02,6.04359e+08,,,,,,,
2023-12-03,5.57831e+08,,,,,,,
2023-12-04,5.29335e+08,,,,,,,
2023-12-05,5.20756e+08,,,,,,,
2023-12-06,5.27615e+08,,,,,,,
2023-12-07,5.27681e+08,,,,,,,
2023-12-08,5.17321e+08,,,,,,,
2023-12-09,5.2128e+08,,,,,,,
2023-12-10,5.16993e+08,,,,,,,
2023-12-11,4.59516e+08,,,,,,,
2023-12-12,5.00155e+08,,,,,,,
2023-12-13,5.02175e+08,,,,,,,
2023-12-14,4.89624e+08,,,,,,,
2023-12-15,4.63949e+08,,,,,,,
2023-12-16,4.43021e+08,,,,,,,
2023-12-17,4.31975e+08,,,,,,,
2023-12-18,4.29696e+08,,,,,,,
2023-12-19,4.39628e+08,,,,,,,
2023-12-20,4.87494e+08,,,,,,,
2023-12-21,4.89517e+08,,,,,,,
2023-12-22,4.82074e+08,,,,,,,
2023-12-23,4.6288e+08,,,,,,,
2023-12-24,4.72027e+08,,,,,,,
2023-12-25,4.87131e+08,,,,,,,
2023-12-26,4.61881e+08,,,,,,,
2023-12-27,4.86766e+08,,,,,,,
2023-12-28,4.73349e+08,,,,,,,
2023-12-29,4.59842e+08,,,,,,,
2023-12-30,4.41697e+08,,,,,,,
2023-12-31,4.27326e+08,,,,,,,
2024-01-01,4.39843e+08,,,,,,,
2024-01-02,4.36475e+08,,,,,,,
2024-01-03,4.24596e+08,,,,,,,
2024-01-04,4.56484e+08,,,,,,,
2024-01-05,4.42575e+08,,,,,,,
2024-01-06,4.37085e+08,,,,,,,
2024-01-07,4.24571e+08,,,,,,,
2024-01-08,4.32541e+08,,,,,,,
2024-01-09,4.13465e+08,,,,,,,
2024-01-10,4.20517e+08,,,,,,,
2024-01-11,4.21767e+08,,,,,,,
2024-01-12,4.0432e+08,,,,,,,
2024-01-13,4.18824e+08,,,,,,,
2024-01-14,4.21518e+08,,,,,,,
2024-01-15,4.46445e+08,,,,,,,
2024-01-16,4.68776e+08,,,,,,,
2024-01-17,4.66435e+08,,,,,,,
2024-01-18,4.42195e+08,,,,,,,
2024-01-19,4.58337e+08,,,,,,,
2024-01-20,4.60729e+08,,,,,,,
2024-01-21,4.60792e+08,,,,,,,
2024-01-22,4.19573e+08,,,,,,,
2024-01-23,4.24553e+08,,,,,,,
2024-01-24,4.21483e+08,,,,,,,
2024-01-25,4.16065e+08,,,,,,,
2024-01-26,4.47836e+08,,,,,,,
2024-01-27,4.41645e+08,,,,,,,
2024-01-28,4.30399e+08,,,,,,,
2024-01-29,4.40021e+08,,,,,,,
2024-01-30,4.21364e+08,,,,,,,
2024-01-31,4.15021e+08,,,,,,,
2024-02-01,4.18825e+08,,,,,,,
2024-02-02,4.21451e+08,,,,,,,
2024-02-03,4.1648e+08,,,,,,,
2024-02-04,4.09603e+08,,,,,,,
2024-02-05,4.04509e+08,,,,,,,
2024-02-06,4.08397e+08,,,,,,,
2024-02-07,4.10446e+08,,,,,,,
2024-02-08,4.02948e+08,,,,,,,
2024-02-09,4.10365e+08,,,,,,,
2024-02-10,4.38459e+08,,,,,,,
2024-02-11,4.14374e+08,,,,,,,
2024-02-12,4.30968e+08,,,,,,,
2024-02-13,4.30996e+08,,,,,,,
2024-02-14,4.50991e+08,,,,,,,
2024-02-15,4.52413e+08,,,,,,,
2024-02-16,4.44875e+08,,,,,,,
2024-02-17,4.65573e+08,,,,,,,
2024-02-18,5.24468e+08,,,,,,,
2024-02-19,5.03296e+08,,,,,,,
2024-02-20,5.02676e+08,,,,,,,
2024-02-21,4.9601e+08,,,,,,,
2024-02-22,4.77075e+08,,,,,,,
2024-02-23,4.66984e+08,,,,,,,
2024-02-24,4.73762e+08,,,,,,,
2024-02-25,4.91092e+08,,,,,,,
2024-02-26,4.96577e+08,,,,,,,
2024-02-27,4.84597e+08,,,,,,,
2024-02-28,4.5992e+08,,,,,,,
2024-02-29,4.56631e+08,,,,,,,
2024-03-01,4.68291e+08,,,,,,,
2024-03-02,4.7217e+08,,,,,,,
2024-03-03,4.68632e+08,,,,,,,
2024-03-04,4.67297e+08,,,,,,,
2024-03-05,4.26809e+08,,,,,,,
2024-03-06,4.16901e+08,,,,,,,
2024-03-07,4.12769e+08,,,,,,,
2024-03-08,4.06833e+08,,,,,,,
2024-03-09,4.1651e+08,,,,,,,
2024-03-10,4.41205e+08,,,,,,,
2024-03-11,4.57268e+08,,,,,,,
2024-03-12,4.53594e+08,,,,,,,
2024-03-13,6.35244e+08,,,,,,,
2024-03-14,6.52744e+08,,,,,,,
2024-03-15,6.72518e+08,,,,,,,
2024-03-16,5.86403e+08,,,,,,,
2024-03-17,7.00588e+08,,,,,,,
2024-03-18,7.43234e+08,,,,,,,
2024-03-19,6.62478e+08,,,,,,,
2024-03-20,7.38104e+08,,,,,,,
2024-03-21,7.13954e+08,,,,,,,
2024-03-22,6.80368e+08,,,,,,,
2024-03-23,7.0318e+08,,,,,,,
2024-03-24,7.38698e+08,,,,,,,
2024-03-25,8.41067e+08,,,,,,,
2024-03-26,8.4774e+08,,,,,,,
2024-03-27,8.0954e+08,,,,,,,
2024-03-28,8.40199e+08,,,,,,,
2024-03-29,8.06806e+08,,,,,,,
2024-03-30,7.85807e+08,,,,,,,
2024-03-31,7.9798e+08,,,,,,,
2024-04-01,7.59603e+08,,,,,,,
2024-04-02,7.03778e+08,,,,,,,
2024-04-03,7.0788e+08,,,,,,,
2024-04-04,7.24615e+08,,,,,,,
2024-04-05,7.28392e+08,,,,,,,
2024-04-06,7.58467e+08,,,,,,,
2024-04-07,7.73233e+08,,,,,,,
2024-04-08,8.04542e+08,,,,,,,
2024-04-09,7.45247e+08,,,,,,,
2024-04-10,7.43967e+08,,,,,,,
2024-04-11,7.09359e+08,,,,,,,
2024-04-12,6.45812e+08,,,,,,,
2024-04-13,5.9953e+08,,,,,,,
2024-04-14,6.15363e+08,,,,,,,
2024-04-15,5.77458e+08,,,,,,,
2024-04-16,5.6309e+08,,,,,,,
2024-04-17,5.40971e+08,,,,,,,
2024-04-18,5.48342e+08,,,,,,,
2024-04-19,5.48421e+08,,,,,,,
2024-04-20,5.74011e+08,,,,,,,
2024-04-21,5.6449e+08,,,,,,,
2024-04-22,5.73668e+08,,,,,,,
2024-04-23,5.65503e+08,,,,,,,
2024-04-24,5.38471e+08,,,,,,,
2024-04-25,5.44412e+08,,,,,,,
2024-04-26,5.35696e+08,,,,,,,
2024-04-27,5.25532e+08,,,,,,,
2024-04-28,5.21796e+08,,,,,,,
2024-04-29,5.10406e+08,,,,,,,
2024-04-30,4.8103e+08,,,,,,,
2024-05-01,4.48619e+08,,,,,,,
2024-05-02,4.53058e+08,,,,,,,
2024-05-03,4.67686e+08,,,,,,,
2024-05-04,4.85821e+08,,,,,,,
2024-05-05,4.75053e+08,,,,,,,
2024-05-06,4.59307e+08,,,,,,,
2024-05-07,4.57196e+08,,,,,,,
2024-05-08,4.39513e+08,,,,,,,
2024-05-09,4.82746e+08,,,,,,,
2024-05-10,4.67422e+08,,,,,,,
2024-05-11,4.62725e+08,,,,,,,
2024-05-12,4.6216e+08,,,,,,,
2024-05-13,4.62072e+08,,,,,,,
2024-05-14,4.46112e+08,,,,,,,
2024-05-15,4.69524e+08,,,,,,,
2024-05-16,4.59694e+08,,,,,,,
2024-05-17,4.69065e+08,,,,,,,
2024-05-18,4.7488e+08,,,,,,,
2024-05-19,4.58322e+08,,,,,,,
2024-05-20,4.81439e+08,,,,,,,
2024-05-21,4.7296e+08,,,,,,,
2024-05-22,4.54727e+08,,,,,,,
2024-05-23,4.4494e+08,,,,,,,
2024-05-24,4.3179e+08,,,,,,,
2024-05-25,4.31121e+08,,,,,,,
2024-05-26,4.28182e+08,,,,,,,
2024-05-27,4.29294e+08,,,,,,,
2024-05-28,4.19995e+08,,,,,,,
2024-05-29,4.11685e+08,,,,,,,
2024-05-30,4.11444e+08,,,,,,,
2024-05-31,4.09627e+08,,,,,,,
2024-06-01,4.07972e+08,,,,,,,
2024-06-02,4.10926e+08,,,,,,,
2024-06-03,4.08736e+08,,,,,,,
2024-06-04,4.20768e+08,,,,,,,
2024-06-05,4.18798e+08,,,,,,,
2024-06-06,4.17666e+08,,,,,,,
2024-06-07,4.09395e+08,,,,,,,
2024-06-08,4.09543e+08,,,,,,,
2024-06-09,4.09242e+08,,,,,,,
2024-06-10,4.05552e+08,,,,,,,
2024-06-11,3.88559e+08,,,,,,,
2024-06-12,3.86339e+08,,,,,,,
2024-06-13,3.67259e+08,,,,,,,
2024-06-14,3.60348e+08,,,,,,,
2024-06-15,3.61153e+08,,,,,,,
2024-06-16,3.66804e+08,,,,,,,
2024-06-17,3.4837e+08,,,,,,,
2024-06-18,3.38202e+08,,,,,,,
2024-06-19,3.42632e+08,,,,,,,
2024-06-20,3.3688e+08,,,,,,,
2024-06-21,3.26647e+08,,,,,,,
2024-06-22,3.21771e+08,,,,,,,
2024-06-23,3.17282e+08,,,,,,,
2024-06-24,2.93965e+08,,,,,,,
2024-06-25,3.13279e+08,,,,,,,
2024-06-26,3.06953e+08,,,,,,,
2024-06-27,3.12769e+08,,,,,,,
2024-06-28,3.11757e+08,,,,,,,
2024-06-29,3.09047e+08,,,,,,,
2024-06-30,3.17647e+08,,,,,,,
2024-07-01,3.23012e+08,,,,,,,
2024-07-02,3.27277e+08,,,,,,,
2024-07-03,3.17962e+08,,,,,,,
2024-07-04,3.04636e+08,,,,,,,
2024-07-05,3.00485e+08,,,,,,,
2024-07-06,3.10173e+08,,,,,,,
2024-07-07,2.90826e+08,,,,,,,
2024-07-08,2.93952e+08,,,,,,,
2024-07-09,2.97373e+08,,,,,,,
2024-07-10,2.98656e+08,,,,,,,
2024-07-11,2.92963e+08,,,,,,,
2024-07-12,2.91575e+08,,,,,,,
2024-07-13,2.9237e+08,,,,,,,
2024-07-14,3.00389e+08,,,,,,,
2024-07-15,3.12206e+08,,,,,,,
2024-07-16,3.10111e+08,,,,,,,
2024-07-17,3.126e+08,,,,,,,
2024-07-18,3.09616e+08,,,,,,,
2024-07-19,3.05309e+08,,,,,,,
2024-07-20,3.01924e+08,,,,,,,
2024-07-21,3.01302e+08,,,,,,,
2024-07-22,2.96984e+08,,,,,,,
2024-07-23,2.90626e+08,,,,,,,
2024-07-24,2.8631e+08,,,,,,,
2024-07-25,2.85341e+08,,,,,,,
2024-07-26,3.01699e+08,,,,,,,
2024-07-27,3.00005e+08,,,,,,,
2024-07-28,2.969e+08,,,,,,,
2024-07-29,2.94412e+08,,,,,,,
2024-07-30,2.9342e+08,,,,,,,
2024-07-31,2.92625e+08,,,,,,,
2024-08-01,2.91359e+08,,,,,,,
2024-08-02,2.68717e+08,,,,,,,
2024-08-03,2.54144e+08,,,,,,,
2024-08-04,2.48142e+08,,,,,,,
2024-08-05,2.44735e+08,,,,,,,
2024-08-06,2.61536e+08,,,,,,,
2024-08-07,2.61047e+08,,,,,,,
2024-08-08,2.88544e+08,,,,,,,
2024-08-09,2.91051e+08,,,,,,,
2024-08-10,2.96882e+08,,,,,,,
2024-08-11,2.80875e+08,,,,,,,
2024-08-12,2.84832e+08,,,,,,,
2024-08-13,2.83645e+08,,,,,,,
2024-08-14,2.78969e+08,,,,,,,
2024-08-15,2.67541e+08,,,,,,,
2024-08-16,2.662e+08,,,,,,,
2024-08-17,2.50341e+08,,,,,,,
2024-08-18,2.49758e+08,,,,,,,
2024-08-19,2.48103e+08,,,,,,,
2024-08-20,2.4373e+08,,,,,,,
2024-08-21,2.51103e+08,,,,,,,
2024-08-22,2.49858e+08,,,,,,,
2024-08-23,2.69925e+08,,,,,,,
2024-08-24,2.67178e+08,,,,,,,
2024-08-25,2.63709e+08,,,,,,,
2024-08-26,2.59475e+08,,,,,,,
2024-08-27,2.46949e+08,,,,,,,
2024-08-28,2.46855e+08,,,,,,,
2024-08-29,2.46405e+08,,,,,,,
2024-08-30,2.45071e+08,,,,,,,
2024-08-31,2.41712e+08,,,,,,,
2024-09-01,2.36916e+08,,,,,,,
2024-09-02,2.42774e+08,,,,,,,
2024-09-03,2.38775e+08,,,,,,,
2024-09-04,2.39217e+08,,,,,,,
2024-09-05,2.31814e+08,,,,,,,
2024-09-06,2.18724e+08,,,,,,,
2024-09-07,2.15256e+08,,,,,,,
2024-09-08,2.15739e+08,,,,,,,
2024-09-09,2.20397e+08,,,,,,,
2024-09-10,2.17132e+08,,,,,,,
2024-09-11,2.05355e+08,,,,,,,
2024-09-12,2.24657e+08,,,,,,,
2024-09-13,2.30579e+08,,,,,,,
2024-09-14,2.27526e+08,,,,,,,
2024-09-15,2.16613e+08,,,,,,,
2024-09-16,2.12109e+08,,,,,,,
2024-09-17,2.1762e+08,,,,,,,
2024-09-18,2.17055e+08,,,,,,,
2024-09-19,2.25774e+08,,,,,,,
2024-09-20,2.26384e+08,,,,,,,
2024-09-21,2.28613e+08,,,,,,,
2024-09-22,2.19695e+08,,,,,,,
2024-09-23,2.22605e+08,,,,,,,
2024-09-24,2.23297e+08,,,,,,,
2024-09-25,2.22824e+08,,,,,,,
2024-09-26,2.22782e+08,,,,,,,
2024-09-27,2.29049e+08,,,,,,,
2024-09-28,2.27705e+08,,,,,,,
2024-09-29,2.20482e+08,,,,,,,
2024-09-30,2.03217e+08,,,,,,,
2024-10-01,1.82785e+08,,,,,,,
2024-10-02,1.83575e+08,,,,,,,
2024-10-03,1.73025e+08,,,,,,,
2024-10-04,1.75423e+08,,,,,,,
2024-10-05,1.71517e+08,,,,,,,
2024-10-06,1.74047e+08,,,,,,,
2024-10-07,1.70198e+08,,,,,,,
2024-10-08,1.63754e+08,,,,,,,
2024-10-09,1.54458e+08,,,,,,,
2024-10-10,1.44798e+08,,,,,,,
2024-10-11,1.58191e+08,,,,,,,
2024-10-12,1.60248e+08,,,,,,,
2024-10-13,1.57394e+08,,,,,,,
2024-10-14,1.72016e+08,,,,,,,
2024-10-15,1.7093e+08,,,,,,,
2024-10-16,1.70374e+08,,,,,,,
2024-10-17,1.6753e+08,,,,,,,
2024-10-18,1.83561e+08,,,,,,,
2024-10-19,1.83004e+08,,,,,,,
2024-10-20,1.8225e+08,,,,,,,
2024-10-21,1.76133e+08,,,,,,,
2024-10-22,1.72494e+08,,,,,,,
2024-10-23,1.64982e+08,,,,,,,
2024-10-24,1.65969e+08,,,,,,,
2024-10-25,1.54378e+08,,,,,,,
2024-10-26,1.57948e+08,,,,,,,
2024-10-27,1.63018e+08,,,,,,,
2024-10-28,1.62207e+08,,,,,,,
2024-10-29,1.66431e+08,,,,,,,
2024-10-30,1.64626e+08,,,,,,,
2024-10-31,1.69998e+08,,,,,,,
2024-11-01,1.65268e+08,,,,,,,
2024-11-02,1.67547e+08,,,,,,,
2024-11-03,1.61425e+08,,,,,,,
2024-11-04,1.54791e+08,,,,,,,
2024-11-05,1.55568e+08,,,,,,,
2024-11-06,1.67361e+08,,,,,,,
2024-11-07,1.72589e+08,,,,,,,
2024-11-08,1.71844e+08,,,,,,,
2024-11-09,1.7498e+08,,,,,,,
2024-11-10,1.82464e+08,,,,,,,
2024-11-11,1.85572e+08,,,,,,,
2024-11-12,1.71205e+08,,,,,,,
2024-11-13,1.74868e+08,,,,,,,
2024-11-14,1.68149e+08,,,,,,,
2024-11-15,1.69874e+08,,,,,,,
2024-11-16,1.72777e+08,,,,,,,
2024-11-17,1.73945e+08,,,,,,,
2024-11-18,1.81848e+08,,,,,,,
2024-11-19,1.76499e+08,,,,,,,
2024-11-20,1.76487e+08,,,,,,,
2024-11-21,1.83355e+08,,,,,,,
2024-11-22,2.18258e+08,,,,,,,
2024-11-23,2.35868e+08,,,,,,,
2024-11-24,2.25171e+08,,,,,,,
2024-11-25,2.34938e+08,,,,,,,
2024-11-26,2.52964e+08,,,,,,,
2024-11-27,2.97566e+08,,,,,,,
2024-11-28,2.88574e+08,,,,,,,
2024-11-29,3.2254e+08,,,,,,,
2024-11-30,3.25096e+08,,,,,,,
2024-12-01,3.17731e+08,,,,,,,
2024-12-02,3.13737e+08,,,,,,,
2024-12-03,3.49924e+08,0.0295763,3.08967e-07,8.13187e-06,0.0281592,0.0295763,0.0296379,gate.io-xrd-usdt-spot
2024-12-04,3.61492e+08,0.0329853,3.43557e-07,9.10211e-06,0.0313435,0.0329853,0.0330208,gate.io-xrd-usdt-spot
2024-12-05,3.66932e+08,0.034073,3.44449e-07,8.86243e-06,0.0323425,0.034073,0.0339311,gate.io-xrd-usdt-spot
2024-12-06,3.77329e+08,0.0345831,3.56712e-07,9.11357e-06,0.0326758,0.0345831,0.0343725,gate.io-xrd-usdt-spot
2024-12-07,4.03936e+08,0.0355604,3.5577e-07,8.86026e-06,0.0335738,0.0355604,0.0353585,gate.io-xrd-usdt-spot
2024-12-08,3.80026e+08,0.038065,3.80735e-07,9.50153e-06,0.0359445,0.038065,0.0381195,gate.io-xrd-usdt-spot
2024-12-09,,0.035809,3.55252e-07,8.94857e-06,0.0338534,0.035809,0.0357461,gate.io-xrd-usdt-spot